Day fraction since midnight on 	Accumulator pressure (Pa)	DO probe (mg/L)	Source pressure (Pa)	air valve control ()	Max calibration pressure (Pa)	source pressure (Pa)	Max calibration pressure ()	Delta P ()	air flow rate(R * T )/ V ()	Fill time (s)	air fill model (Pa)
0.645498332	51112.27344	1.912828922	102173.4531	0.063584127	61304.07188	102173.4531	61304.07188	56304.07188	1349.7	41.71599013	16611.89023
0.645556117	58285.21094	1.428375244	102027.9063	0.067699931	61216.74375	102027.9063	61216.74375	56216.74375	1349.7	41.65128825	23350.47191
0.645614085	63095.35156	1.155516505	101918.7266	0.070888538	61151.23594	101918.7266	61151.23594	56151.23594	1349.7	41.60275316	30096.73222
0.64567185	67260.25	1.077340484	101832.3125	0.073724606	61099.3875	101832.3125	61099.3875	56099.3875	1349.7	41.56433837	36860.04374
0.645729719	69712.14844	1.140241504	101782.0391	0.076777762	61069.22344	101782.0391	61069.22344	56069.22344	1349.7	41.54198966	43608.38091
0.645787675	71859.99219	1.318851113	101739.8438	0.078196862	61043.90625	101739.8438	61043.90625	56043.90625	1349.7	41.52323201	50353.05607
0.645845568	72450.21094	1.594142437	101737.4766	0.078772926	61042.48594	101737.4766	61042.48594	56042.48594	1349.7	41.5221797	57104.35568
0.645903373	72534.85156	1.904681444	101742.7969	0.078562223	61045.67813	101742.7969	61045.67813	56045.67813	1349.7	41.52454481	61045.67813
0.645961287	71907.33594	2.229964972	101688.1172	0.077529991	61012.87031	101688.1172	61012.87031	56012.87031	1349.7	41.50023732	61012.87031
0.646019111	71165.02344	2.583292007	101653.4531	0.076478448	60992.07188	101653.4531	60992.07188	55992.07188	1349.7	41.48482765	60992.07188
0.646076983	70065.50781	2.933317661	101621.1875	0.075327044	60972.7125	101621.1875	60972.7125	55972.7125	1349.7	41.47048418	60972.7125
0.646134865	66538.66406	3.245174408	101567.6875	0.068642737	60940.6125	101567.6875	60940.6125	55940.6125	1349.7	41.44670112	60940.6125
0.646192744	58254.24609	3.56921792	101521.5781	0.064433368	60912.94688	101521.5781	60912.94688	55912.94688	1349.7	41.42620351	60912.94688
0.646250585	51205.25391	3.907715321	101520.2734	0.060055742	60912.16406	101520.2734	60912.16406	55912.16406	1349.7	41.42562352	60912.16406
0.646308546	47101.66797	4.211166382	101514.5391	0.060843964	60908.72344	101514.5391	60908.72344	55908.72344	1349.7	41.42307434	60908.72344
